Folder: pypi-mirror-215/packages/xrd-xy-parser/xrd-xy-parser-0.0.4.tar.gz/xrd-xy-parser-0.0.4/examples

Note: README.md
# PyPI code 215

This repo contains 40000 packages uploaded to PyPI between 
2023-06-20 14:25 and 2023-06-26 14:06.

The repo is 9% (3998/40000) complete.

## Packages:

| Name  | Count |
| ----- | ----- |
| xw-utils | 351 |
| pytheus-backend-rs | 244 |
| pillar1 | 124 |
| viterbi | 108 |
| kalm | 106 |
| pyzstd | 105 |
| bitarray | 102 |
| mujoco-dev | 100 |
| mecab-ko-msvc | 100 |
| astyle | 92 |
| kolo | 90 |
| docleaf | 90 |
| stringzilla | 81 |
| pydantic-core | 81 |
| ijson | 78 |
| power-grid-model | 77 |
| amplpy | 76 |
| stam | 75 |
| blspy | 75 |
| biscuit-python | 75 |
| pymongo | 74 |
| typeset-soren-n | 70 |
| few-shot-priming | 68 |
| fast-matrix-market | 68 |
| phubble | 66 |

File: example.xy
<299.25K>
Wavelength = 1.54059
30	1.00
30.07	1.00
30.14	1.00
30.21	2.00
30.28	1.00
30.35	1.00
30.42	0.00
30.49	3.00
30.56	1.00
30.63	1.00
30.7	3.00
30.77	1.00
30.84	3.00
30.91	1.00
30.98	1.00
31.05	1.00
31.12	2.00
31.19	1.00
31.26	2.00
31.33	1.00
31.4	0.00
31.47	2.00
31.54	1.00
31.61	1.00
31.68	4.00
31.75	1.00
31.82	1.00
31.89	2.00
31.96	4.00
32.03	1.00
32.1	1.00
32.17	0.00
32.24	1.00
32.31	2.00
32.38	1.00
32.45	1.00
32.52	1.00
32.59	2.00
32.66	2.00
32.73	2.00
32.8	0.00
32.87	1.00
32.94	0.00
33.01	2.00
33.08	2.00
33.15	2.00
33.22	0.00
33.29	1.00
33.36	1.00
33.43	0.00
33.5	2.00
33.57	3.00
33.64	0.00
33.71	0.00
33.78	2.00
33.85	1.00
33.92	4.00
33.99	2.00
34.06	1.00
34.13	1.00
34.2	0.00
34.27	0.00
34.34	1.00
34.41	1.00
34.48	2.00
34.55	0.00
34.62	0.00
34.69	1.00
34.76	2.00
34.83	3.00
34.9	0.00
34.97	1.00
35.04	1.00
35.11	1.00
35.18	1.00
35.25	0.00
35.32	1.00
35.39	0.00
35.46	0.00
35.53	2.00
35.6	1.00
35.67	1.00
35.74	3.00
35.81	1.00
35.88	21.00
35.95	43.00
36.02	3.00
36.09	0.00
36.16	0.00
36.23	2.00
36.3	1.00
36.37	0.00
36.44	0.00
36.51	1.00
36.58	2.00
36.65	0.00
36.72	0.00
36.79	1.00
36.86	0.00
36.93	3.00
37	0.00
37.07	1.00
37.14	1.00
37.21	0.00
37.28	0.00
37.35	2.00
37.42	3.00
37.49	2.00
37.56	0.00
37.63	0.00
37.7	0.00
37.77	2.00
37.84	1.00
37.91	2.00
37.98	0.00
38.05	2.00
38.12	3.00
38.19	0.00
38.26	3.00
38.33	0.00
38.4	0.00
38.47	0.00
38.54	1.00
38.61	2.00
38.68	0.00
38.75	1.00
38.82	2.00
38.89	0.00
38.96	0.00
39.03	2.00
39.1	2.00
39.17	1.00
39.24	0.00
39.31	1.00
39.38	2.00
39.45	0.00
39.52	1.00
39.59	1.00
39.66	3.00
39.73	0.00
39.8	1.00
39.87	1.00
39.94	0.00
40.01	0.00
40.08	2.00
40.15	0.00
40.22	0.00
40.29	0.00
40.36	2.00
40.43	1.00
40.5	1.00
40.57	0.00
40.64	0.00
40.71	0.00
40.78	2.00
40.85	1.00
40.92	0.00
40.99	1.00
41.06	0.00
41.13	1.00
41.2	3.00
41.27	3.00
41.34	0.00
41.41	1.00
41.48	0.00
41.55	2.00
41.62	1.00
41.69	1.00
41.76	2.00
41.83	1.00
41.9	1.00
41.97	2.00
42.04	1.00
42.11	0.00
42.18	1.00
42.25	1.00
42.32	2.00
42.39	0.00
42.46	0.00
42.53	3.00
42.6	0.00
42.67	1.00
42.74	0.00
42.81	1.00
42.88	1.00
42.95	1.00
43.02	0.00
43.09	4.00
43.16	2.00
43.23	0.00
43.3	1.00
43.37	0.00
43.44	0.00
43.51	1.00
43.58	1.00
43.65	1.00
43.72	1.00
43.79	0.00
43.86	1.00
43.93	0.00
44	1.00
44.07	1.00
44.14	0.00
44.21	0.00
44.28	3.00
44.35	1.00
44.42	0.00
44.49	1.00
44.56	0.00
44.63	1.00
44.7	2.00
44.77	1.00
44.84	2.00
44.91	1.00
44.98	0.00
45.05	2.00
45.12	2.00
45.19	1.00
45.26	9.00
45.33	85.00
45.4	27.00
45.47	5.00
45.54	3.00
45.61	2.00
45.68	1.00
45.75	1.00
45.82	1.00
45.89	1.00
45.96	0.00
46.03	1.00
46.1	3.00
46.17	0.00
46.24	2.00
46.31	2.00
46.38	0.00
46.45	0.00
46.52	0.00
46.59	1.00
46.66	4.00
46.73	0.00
46.8	3.00
46.87	3.00
46.94	0.00
47.01	0.00
47.08	0.00
47.15	1.00
47.22	1.00
47.29	0.00
47.36	0.00
47.43	2.00
47.5	1.00
47.57	0.00
47.64	2.00
47.71	0.00
47.78	1.00
47.85	3.00
47.92	1.00
47.99	1.00
48.06	3.00
48.13	0.00
48.2	0.00
48.27	0.00
48.34	1.00
48.41	0.00
48.48	1.00
48.55	0.00
48.62	1.00
48.69	1.00
48.76	0.00
48.83	0.00
48.9	1.00
48.97	0.00
49.04	1.00
49.11	1.00
49.18	2.00
49.25	0.00
49.32	0.00
49.39	2.00
49.46	0.00
49.53	0.00
49.6	1.00
49.67	2.00
49.74	0.00
49.81	0.00
49.88	1.00
49.95	2.00
49.99	0.00